File: Experimental data processing Python/Raman fit and plot/thf with ceramic - 2 7 peaks/thf with ceramic - 2 sliced_fit.csv
Wavenumbers (cm^-1),Intensity (a.u.) fit
707.0,0.0328185
707.144,0.0328185
707.288,0.0328185
707.432,0.0328185
707.576,0.0328185
707.72,0.0328185
707.864,0.0328185
708.008,0.0328185
708.152,0.0328185
708.296,0.0328185
708.44,0.0328185
708.585,0.0328185
708.729,0.0328185
708.873,0.0328185
709.017,0.0328185
709.161,0.0328185
709.305,0.0328185
709.449,0.0328185
709.593,0.0328185
709.737,0.0328185
709.881,0.0328185
710.025,0.0328185
710.169,0.0328185
710.313,0.0328185
710.457,0.0328185
710.601,0.0328185
710.745,0.0328185
710.889,0.0328185
711.033,0.0328185
711.177,0.0328185
711.321,0.0328185
711.465,0.0328185
711.609,0.0328185
711.754,0.0328185
711.898,0.0328185
712.042,0.0328185
712.186,0.0328185
712.33,0.0328185
712.474,0.0328185
712.618,0.0328185
712.762,0.0328185
712.906,0.0328185
713.05,0.0328185
713.194,0.0328185
713.338,0.0328185
713.482,0.0328185
713.626,0.0328185
713.77,0.0328185
713.914,0.0328185
714.058,0.0328185
714.202,0.0328185
714.346,0.0328185
714.49,0.0328185
714.634,0.0328185
714.778,0.0328185
714.923,0.0328185
715.067,0.0328185
715.211,0.0328185
715.355,0.0328185
715.499,0.0328185
715.643,0.0328185
715.787,0.0328185
715.931,0.0328185
716.075,0.0328185
716.219,0.0328185
716.363,0.0328185
716.507,0.0328185
716.651,0.0328185
716.795,0.0328185
716.939,0.0328185
717.083,0.0328185
717.227,0.0328185
717.371,0.0328185
717.515,0.0328185
717.659,0.0328185
717.803,0.0328185
717.947,0.0328185
718.092,0.0328185
718.236,0.0328185
718.38,0.0328185
718.524,0.0328185
718.668,0.0328185
718.812,0.0328185
718.956,0.0328185
719.1,0.0328185
719.244,0.0328185
719.388,0.0328185
719.532,0.0328185
719.676,0.0328185
719.82,0.0328185
719.964,0.0328185
720.108,0.0328185
720.252,0.0328185
720.396,0.0328185
720.54,0.0328185
720.684,0.0328185
720.828,0.0328185
720.972,0.0328185
721.116,0.0328185
721.261,0.0328185
721.405,0.0328185
721.549,0.0328185
721.693,0.0328185
721.837,0.0328185
721.981,0.0328185
722.125,0.0328185
722.269,0.0328185
722.413,0.0328185
722.557,0.0328185
722.701,0.0328185
722.845,0.0328185
722.989,0.0328185
723.133,0.0328185
723.277,0.0328185
723.421,0.0328185
723.565,0.0328185
723.709,0.0328186
723.853,0.0328187
723.997,0.0328188
724.141,0.0328191
724.285,0.0328196
724.43,0.0328205
724.574,0.032822
724.718,0.0328247
724.862,0.0328293
725.006,0.0328373
725.15,0.032851
725.294,0.032874
725.438,0.0329121
725.582,0.0329744
725.726,0.0330742
725.87,0.0332318
726.014,0.033476
726.158,0.0338478
726.302,0.0344034
726.446,0.0352184
726.59,0.0363912
726.734,0.0380465
726.878,0.0403378
727.022,0.0434468
727.166,0.0475812
727.31,0.0529679
727.454,0.0598413
727.599,0.0684277
727.743,0.0789238
727.887,0.0914721
728.031,0.106134
728.175,0.122865
728.319,0.141491
728.463,0.161694
728.607,0.183012
728.751,0.204845
728.895,0.226486
729.039,0.247152
729.183,0.266048
729.327,0.282414
729.471,0.295594
729.615,0.305092
729.759,0.310612
729.903,0.312091
730.047,0.309702
730.191,0.303847
730.335,0.295115
730.479,0.284238
730.623,0.272031
730.768,0.259325
730.912,0.24691
731.056,0.235482
731.2,0.225602
731.344,0.217679
731.488,0.211952
731.632,0.208505
731.776,0.20728
731.92,0.208098
732.064,0.210695
732.208,0.214745
732.352,0.219894
732.496,0.225778
732.64,0.232051
732.784,0.238396
732.928,0.244536
733.072,0.250249
733.216,0.255367
733.36,0.259784
733.504,0.263455
733.648,0.266401
733.792,0.268708
733.937,0.270524
734.081,0.272058
734.225,0.273574
734.369,0.275383
734.513,0.277835
734.657,0.281299
734.801,0.28615
734.945,0.292746
735.089,0.301403
735.233,0.312375
735.377,0.325822
735.521,0.341793
735.665,0.360209
735.809,0.380846
735.953,0.403338
736.097,0.427181
736.241,0.45175
736.385,0.476329
736.529,0.500145
736.673,0.522418
736.817,0.542399
736.961,0.559429
737.106,0.572975
737.25,0.582672
737.394,0.588348
737.538,0.590033
737.682,0.587966
737.826,0.582569
737.97,0.57443
738.114,0.564252
738.258,0.552818
738.402,0.540935
738.546,0.529389
738.69,0.518899
738.834,0.510083
738.978,0.50343
739.122,0.49928
739.266,0.497824
739.41,0.499099
739.554,0.503008
739.698,0.509331
739.842,0.517753
739.986,0.527882
740.13,0.53928
740.275,0.55148
740.419,0.564013
740.563,0.576425
740.707,0.58829
740.851,0.599226
740.995,0.608904
741.139,0.617052
741.283,0.623467
741.427,0.628014
741.571,0.63063
741.715,0.631327
741.859,0.63019
742.003,0.627374
742.147,0.623103
742.291,0.617658
742.435,0.611372
742.579,0.604609
742.723,0.597748
742.867,0.591164
743.011,0.5852
743.155,0.580141
743.299,0.576196
743.444,0.573473
743.588,0.571967
743.732,0.571557
743.876,0.572013
744.02,0.57301
744.164,0.57416
744.308,0.57505
744.452,0.575284
744.596,0.574533
744.74,0.572571
744.884,0.569318
745.028,0.564859
745.172,0.559452
745.316,0.553522
745.46,0.547637
745.604,0.542467
745.748,0.538742
745.892,0.537193
746.036,0.538502
746.18,0.543248
746.324,0.551872
746.468,0.564642
746.613,0.581638
746.757,0.602746
746.901,0.627668
747.045,0.655936
747.189,0.686937
747.333,0.719947
747.477,0.754156
747.621,0.788708
747.765,0.822726
747.909,0.855346
748.053,0.885739
748.197,0.913135
748.341,0.936844
748.485,0.956272
748.629,0.970928
748.773,0.980443
748.917,0.984569
749.061,0.983188
749.205,0.976307
749.349,0.964065
749.493,0.946718
749.637,0.92464
749.782,0.898308
749.926,0.868291
750.07,0.835233
750.214,0.799841
750.358,0.762859
750.502,0.725055
750.646,0.687196
750.79,0.650028
750.934,0.614255
751.078,0.580516
751.222,0.549368
751.366,0.521265
751.51,0.496547
751.654,0.475424
751.798,0.457969
751.942,0.44412
752.086,0.433673
752.23,0.4263
752.374,0.421559
752.518,0.418909
752.662,0.417744
752.806,0.417413
752.951,0.417254
753.095,0.416624
753.239,0.414933
753.383,0.411665
753.527,0.406407
753.671,0.398862
753.815,0.388862
753.959,0.376372
754.103,0.361478
754.247,0.344385
754.391,0.325395
754.535,0.304884
754.679,0.283281
754.823,0.26104
754.967,0.238618
755.111,0.21645
755.255,0.194932
755.399,0.174404
755.543,0.155145
755.687,0.137362
755.831,0.121192
755.975,0.106709
756.12,0.0939236
756.264,0.0827963
756.408,0.0732463
756.552,0.0651613
756.696,0.0584081
756.84,0.0528417
756.984,0.0483132
757.128,0.0446763
757.272,0.0417928
757.416,0.0395354
757.56,0.0377901
757.704,0.0364576
757.848,0.0354528
757.992,0.0347042
758.136,0.0341535
758.28,0.0337531
758.424,0.0334655
758.568,0.0332615
758.712,0.0331184
758.856,0.0330193
759,0.0329514
759.144,0.0329055
759.289,0.0328748
759.433,0.0328546
759.577,0.0328413
759.721,0.0328328
759.865,0.0328273
760.009,0.0328239
760.153,0.0328217
760.297,0.0328204
760.441,0.0328196
760.585,0.0328191
760.729,0.0328189
760.873,0.0328187
761.017,0.0328186
761.161,0.0328185
761.305,0.0328185
761.449,0.0328185
761.593,0.0328185
761.737,0.0328185
761.881,0.0328185
762.025,0.0328185
762.169,0.0328185
762.313,0.0328185
762.458,0.0328185
762.602,0.0328185
762.746,0.0328185
762.89,0.0328185
763.034,0.0328185
763.178,0.0328185
763.322,0.0328185
763.466,0.0328185
763.61,0.0328185
763.754,0.0328185
763.898,0.0328185
764.042,0.0328185
764.186,0.0328185
764.33,0.0328185
764.474,0.0328185
764.618,0.0328185
764.762,0.0328185
764.906,0.0328185
765.05,0.0328185
765.194,0.0328185
765.338,0.0328185
765.482,0.0328185
765.627,0.0328185
765.771,0.0328185
765.915,0.0328185
766.059,0.0328185
766.203,0.0328185
766.347,0.0328185
766.491,0.0328185
766.635,0.0328185
766.779,0.0328185
766.923,0.0328185
767.067,0.0328185
767.211,0.0328185
767.355,0.0328185
767.499,0.0328185
767.643,0.0328185
767.787,0.0328185
767.931,0.0328185
768.075,0.0328185
768.219,0.0328185
768.363,0.0328185
768.507,0.0328185
768.651,0.0328185
768.796,0.0328185
768.94,0.0328185
769.084,0.0328185
769.228,0.0328185
769.372,0.0328185
769.516,0.0328185
769.66,0.0328185
769.804,0.0328185
769.948,0.0328185
770.092,0.0328185
770.236,0.0328185
770.38,0.0328185
770.524,0.0328185
770.668,0.0328185
770.812,0.0328185
770.956,0.0328185
771.1,0.0328185
771.244,0.0328185
771.388,0.0328185
771.532,0.0328185
771.676,0.0328185
771.82,0.0328185
771.965,0.0328185
772.109,0.0328185
772.253,0.0328185
772.397,0.0328185
772.541,0.0328185
772.685,0.0328185
772.829,0.0328185
772.973,0.0328185
773.117,0.0328185
773.261,0.0328185
773.405,0.0328185
773.549,0.0328185
773.693,0.0328185
773.837,0.0328185
773.981,0.0328185
774.125,0.0328185
774.269,0.0328185
774.413,0.0328185
774.557,0.0328185
774.701,0.0328185
774.845,0.0328185
774.989,0.0328185
775.134,0.0328185
775.278,0.0328185
775.422,0.0328185
775.566,0.0328185
775.71,0.0328185
775.854,0.0328185
775.998,0.0328185
776.142,0.0328185
776.286,0.0328185
776.43,0.0328185
776.574,0.0328185
776.718,0.0328185
776.862,0.0328185
777.006,0.0328185
777.15,0.0328185
777.294,0.0328185
777.438,0.0328185
777.582,0.0328185
777.726,0.0328185
777.87,0.0328185
778.014,0.0328185
778.158,0.0328185
778.303,0.0328185
778.447,0.0328185
778.591,0.0328185
778.735,0.0328185
778.8787,0.0328185