File: Experimental data processing Python/Raman fit and plot/thf with ceramic - 2.csv
TITLE,cer
DATA TYPE,RAMAN SPECTRUM
ORIGIN,JASCO
OWNER,
DATE,21/04/06
TIME,15:17:11
SPECTROMETER/DATA SYSTEM,
LOCALE,1041
RESOLUTION,
DELTAX,0.2
XUNITS,1/CM
YUNITS,INTENSITY
FIRSTX,   88.4787
LASTX, 1963.28
NPOINTS,    9375
FIRSTY,    26.01411
MAXY,   546.005
MINY,   -37.95501
XYDATA
88.4787,26.0141
89.8787,93.0618
91.2787,131.931
92.6787,115.924
94.0787,43.1809
95.4787,1.92017
96.8787,17.4722
98.2787,45.6675
99.6787,107.952
101.0787,259.854
102.4787,494.223
103.8787,505.825
105.2787,311.04
106.6787,210.132
108.0787,88.0274
109.4787,-34.8829
110.8787,3.39506
112.2787,13.1619
113.6787,39.5972
115.0787,283.834
116.4787,384.164
117.8787,248.268
119.2787,113.534
120.6787,26.8387
122.0787,15.4133
123.4787,82.5809
124.8787,67.8816
126.2787,-9.61206
127.6787,-2.83978
129.0787,18.1256
130.4787,18.5007
131.8787,23.5133
133.2787,21.6293
134.6787,21.1305
136.0787,36.7513
137.4787,34.4605
138.8787,22.489
140.2787,32.6751
141.6787,45.2086
143.0787,41.7665
144.4787,24.03
145.8787,23.1618
147.2787,37.3345
148.6787,41.2339
150.0787,23.1961
151.4787,15.3652
152.8787,47.425
154.2787,75.8687
155.6787,78.3438
157.0787,57.2518
158.4787,26.683
159.8787,24.0147
161.2787,57.2182
162.6787,53.8802
164.0787,34.5479
165.4787,35.9655
166.8787,21.8424
168.2787,26.6192
169.6787,63.4863
171.0787,48.3398
172.4787,20.1595
173.8787,29.673
175.2787,44.5204
176.6787,54.59
178.0787,57.0749
179.4787,43.0624
180.8787,21.6147
182.2787,16.0084
183.6787,41.5705
185.0787,18.7003
186.4787,26.9515
187.8787,263.806
189.2787,295.334
190.6787,53.8737
192.0787,5.52117
193.4787,45.9971
194.8787,49.378
196.2787,38.1783
197.6787,8.47607
199.0787,49.6963
200.4787,253.122
201.8787,389.211
203.2787,322.562
204.6787,121.868
206.0787,34.0755
207.4787,51.5006
208.8787,28.6656
210.2787,25.8306
211.6787,39.3416
213.0787,29.4148
214.4787,23.9196
215.8787,24.5451
217.2787,27.9074
218.6787,53.0017
220.0787,29.4083
221.4787,1.9624
222.8787,214.906
224.2787,266.479
225.6787,36.5531
227.0787,157.728
228.4787,371.311
229.8787,325.337
231.2787,103.752
232.6787,112.728
234.0787,338.769
235.4787,327.661
236.8787,313.745
238.2787,304.945
239.6787,75.303
241.0787,80.828
242.4787,284.002
243.8787,275.004
245.2787,234.816
246.6787,246.058
248.0787,250.809
249.4787,242.666
250.8787,229.696
252.2787,224.584
253.6787,237.728
255.0787,238.855
256.4787,210.238
257.8787,191.434
259.2787,193.382
260.6787,206.878
262.0787,215.981
263.4787,207.513
264.8787,187.421
266.2787,180.583
267.6787,193.282
269.0787,205.897
270.4787,191.333
271.8787,173.947
273.2787,172.423
274.6787,182.3
276.0787,179.169
277.4787,160.177
278.8787,137.472
280.2787,115.173
281.6787,103.865
283.0787,105.319
284.4787,95.7973
285.8787,64.5442
287.2787,28.7994
288.6787,28.8393
290.0787,43.3426
291.4787,43.8018
292.8787,29.7742
294.2787,20.9996
295.6787,28.4285
297.0787,43.8433
298.4787,46.7587
299.8787,36.6387
301.2787,32.5519
302.6787,50.4406
304.0787,77.8874
305.4787,94.8031
306.8787,108.559
308.2787,122.762
309.6787,136.227
311.0787,148.491
312.4787,168.845
313.8787,187.531
315.2787,173.408
316.6787,165.015
318.0787,175.792
319.4787,169.718
320.8787,147.62
322.2787,128.419
323.6787,126.079
325.0787,118.234
326.4787,99.076
327.8787,78.4249
329.2787,62.2801
330.6787,59.3309
332.0787,70.662
333.4787,80.4591
334.8787,77.7173
336.2787,73.8495
337.6787,95.3917
339.0787,103.905
340.4787,92.5387
341.8787,100.48
343.2787,115.89
344.6787,127.863
346.0787,134.657
347.4787,128.147
348.8787,123.982
350.2787,138.329
351.6787,153.472
353.0787,153.166
354.4787,137.588
355.8787,127.017
357.2787,131.835
358.6787,139.139
360.0787,122.581
361.4787,97.1168
362.8787,80.6704
364.2787,77.3768
365.6787,74.0187
367.0787,65.9436
368.4787,54.9474
369.8787,40.7706
371.2787,42.0769
372.6787,55.5341
374.0787,37.7326
375.4787,25.3593
376.8787,39.2853
378.2787,46.7157
379.6787,40.8925
381.0787,32.6824
382.4787,35.3212
383.8787,41.9594
385.2787,39.0647
386.6787,24.3916
388.0787,21.0862
389.4787,25.7169
390.8787,33.1605
392.2787,51.6448
393.6787,47.5882
395.0787,22.9818
396.4787,23.1049
397.8787,32.6021
399.2787,37.205
400.6787,36.6903
402.0787,31.5901
403.4787,36.5664
404.8787,56.133
406.2787,61.5379
407.6787,43.6314
409.0787,22.1816
410.4787,31.3242
411.8787,51.7322
413.2787,60.8224
414.6787,57.7068
416.0787,66.5358
417.4787,80.0205
418.8787,80.8605
420.2787,85.2777
421.6787,96.3132
423.0787,113.369
424.4787,141.395
425.8787,170.65
427.2787,191.293
428.6787,205.564
430.0787,236.785
431.4787,277.481
432.8787,308.303
434.2787,346.708
435.6787,393.634
437.0787,434.349
438.4787,453.229
439.8787,463.977
441.2787,471.937
442.6787,466.326
444.0787,459.882
445.4787,450.016
446.8787,430.339
448.2787,424.501
449.6787,414.847
451.0787,386.576
452.4787,367.2
453.8787,343.46
455.2787,314.271
456.6787,300.61
458.0787,278.047
459.4787,244.386
460.8787,213.951
462.2787,178.072
463.6787,162.434
465.0787,168.564
466.4787,139.274
467.8787,108.68
469.2787,102.518
470.6787,98.3937
472.0787,79.491
473.4787,61.8002
474.8787,63.3999
476.2787,56.653
477.6787,48.4353
479.0787,46.0937
480.4787,33.1771
481.8787,31.3829
483.2787,41.8502
484.6787,40.3801
486.0787,33.1243
487.4787,31.5195
488.8787,37.158
490.2787,35.4127
491.6787,27.9302
493.0787,24.6449
494.4787,30.872
495.8787,31.9544
497.2787,28.5973
498.6787,30.9115
500.0787,26.4242
501.4787,24.8147
502.8787,33.4019
504.2787,32.9004
505.6787,25.887
507.0787,26.326
508.4787,39.8799
509.8787,36.653
511.2787,23.2639
512.6787,23.705
514.0787,29.6632
515.4787,38.6134
516.8787,49.1599
518.2787,56.2319
519.6787,60.9833
521.0787,65.5186
522.4787,69.4387
523.8787,69.3934
525.2787,77.0947
526.6787,97.5184
528.0787,113.309
529.4787,127.885
530.8787,139.266
532.2787,140.097
533.6787,150.729
535.0787,171.954
536.4787,192.128
537.8787,210.194
539.2787,232.742
540.6787,258.895
542.0787,276.737
543.4787,281.432
544.8787,290.672
546.2787,314.801
547.6787,317.967
549.0787,319.144
550.4787,337.827
551.8787,354.36
553.2787,356.66
554.6787,350.676
556.0787,354.503
557.4787,379.043
558.8787,393.097
560.2787,380.142
561.6787,373.932
563.0787,376.515
564.4787,379.534
565.8787,379.197
567.2787,380.798
568.6787,380.934
570.0787,376.399
571.4787,372.668
572.8787,366.541
574.2787,358.411
575.6787,355.151
577.0787,360.734
578.4787,363.834
579.8787,356.636
581.2787,352.486
582.6787,359.322
584.0787,368.41
585.4787,362.546
586.8787,345.562
588.2787,339.332
589.6787,354.283
591.0787,365.737
592.4787,356.565
593.8787,346.419
595.2787,369.091
596.6787,393.255
598.0787,390.007
599.4787,367.99
600.8787,372.889
602.2787,381.276
603.6787,380.692
605.0787,387.212
606.4787,383.568
607.8787,371.057
609.2787,361.55
610.6787,355.776
612.0787,344.792
613.4787,332.706
614.8787,328.474
616.2787,310.187
617.6787,288.657
619.0787,279.59
620.4787,270.439
621.8787,257.359
623.2787,242.173
624.6787,229.633
626.0787,225.026
627.4787,210.103
628.8787,178.257
630.2787,157.313
631.6787,157.479
633.0787,153.617
634.4787,122.713
635.8787,105.261
637.2787,98.2318
638.6787,89.2914
640.0787,86.0834
641.4787,80.0105
642.8787,76.2156
644.2787,77.7855
645.6787,59.435
647.0787,51.3739
648.4787,60.0735
649.8787,49.4963
651.2787,46.1195
652.6787,47.462
654.0787,41.7409
655.4787,48.8957
656.8787,44.0792
658.2787,25.7833
659.6787,23.9068
661.0787,31.6439
662.4787,37.32
663.8787,39.128
665.2787,44.0839
666.6787,38.4873
668.0787,30.8961
669.4787,37.311
670.8787,35.0505
672.2787,42.716
673.6787,59.635
675.0787,45.6136
676.4787,21.8773
677.8787,28.2186
679.2787,60.7488
680.6787,45.4475
682.0787,23.1629
683.4787,29.8951
684.8787,43.5899
686.2787,38.3711
687.6787,27.0241
689.0787,27.9026
690.4787,33.5684
691.8787,37.472
693.2787,33.2647
694.6787,25.8881
696.0787,39.4313
697.4787,43.5033
698.8787,27.2803
700.2787,24.4232
701.6787,35.5292
703.0787,42.9504
704.4787,34.5757
705.8787,22.4369
707.2787,32.8423
708.6787,50.0672
710.0787,40.7559
711.4787,29.8832
712.8787,34.7644
714.2787,45.0139
715.6787,36.4328
717.0787,25.1153
718.4787,30.698
719.8787,44.4334
721.2787,28.8367
722.6787,20.5919
724.0787,30.2749
725.4787,31.1111
726.8787,26.3433
728.2787,35.9536
729.6787,52.8133
731.0787,45.9424
732.4787,44.4364
733.8787,49.3409
735.2787,53.7247
736.6787,74.642
738.0787,79.1255
739.4787,72.2463
740.8787,82.7932
742.2787,83.9247
743.6787,79.9858
745.0787,78.4476
746.4787,79.0965
747.8787,107.266
749.2787,120.247
750.6787,89.1866
752.0787,67.4387
753.4787,61.108
754.8787,50.0528
756.2787,27.0501
757.6787,23.7626
759.0787,37.2557
760.4787,42.1888
761.8787,26.9338
763.2787,31.7792
764.6787,45.2635
766.0787,40.6922
767.4787,25.2173
768.8787,41.8366
770.2787,63.9997
771.6787,54.7475
773.0787,47.5011
774.4787,55.0207
775.8787,61.2722
777.2787,52.6028
778.6787,54.7424
780.0787,62.6327
781.4787,65.1024
782.8787,63.4157
784.2787,64.7505
785.6787,70.0141
787.0787,76.7941
788.4787,80.7249
789.8787,70.5383
791.2787,78.2056
792.6787,116.418
794.0787,127.259
795.4787,124.382
796.8787,129.019
798.2787,141.432
799.6787,149.346
801.0787,150.633
802.4787,158.192
803.8787,175.656
805.2787,163.935
806.6787,164.316
808.0787,188.782
809.4787,179.389
810.8787,148.516
812.2787,147.578
813.6787,177.424
815.0787,166.575
816.4787,142.985
817.8787,141.513
819.2787,159.798
820.6787,163.077
822.0787,153.606
823.4787,153.438
824.8787,170.488
826.2787,175.497
827.6787,172.376
829.0787,174.526
830.4787,182.644
831.8787,181.18
833.2787,171.082
834.6787,170.306
836.0787,191.344
837.4787,203.897
838.8787,201.635
840.2787,207.387
841.6787,240.703
843.0787,256.771
844.4787,245.834
845.8787,241.48
847.2787,274.198
848.6787,287.754
850.0787,265.383
851.4787,243.259
852.8787,252.699
854.2787,240.365
855.6787,194.147
857.0787,156.395
858.4787,154.319
859.8787,143.821
861.2787,119.009
862.6787,108.519
864.0787,91.2938
865.4787,71.2521
866.8787,60.4397
868.2787,58.9407
869.6787,51.9552
871.0787,42.2201
872.4787,34.6704
873.8787,29.7624
875.2787,34.4168
876.6787,33.4592
878.0787,24.9346
879.4787,28.1594
880.8787,32.9461
882.2787,28.8275
883.6787,25.2803
885.0787,38.0211
886.4787,32.9286
887.8787,24.4745
889.2787,38.6268
890.6787,58.9723
892.0787,45.9137
893.4787,26.8867
894.8787,35.7345
896.2787,45.26
897.6787,30.2221
899.0787,27.2436
900.4787,53.9232
901.8787,51.72
903.2787,47.1287
904.6787,44.0817
906.0787,35.235
907.4787,40.888
908.8787,32.8493
910.2787,22.5816
911.6787,31.1882
913.0787,31.7412
914.4787,28.9273
915.8787,26.938
917.2787,24.3566
918.6787,24.5232
920.0787,24.6689
921.4787,32.8215
922.8787,44.6074
924.2787,28.4005
925.6787,24.1228
927.0787,32.4658
928.4787,28.6738
929.8787,32.92
931.2787,48.8822
932.6787,57.2119
934.0787,42.1752
935.4787,22.3825
936.8787,28.0953
938.2787,44.3527
939.6787,41.3983
941.0787,34.666
942.4787,37.5521
943.8787,39.1429
945.2787,26.8655
946.6787,19.613
948.0787,40.0228
949.4787,55.0234
950.8787,36.9822
952.2787,38.2803
953.6787,56.03
955.0787,60.5973
956.4787,47.3523
957.8787,54.5916
959.2787,69.0549
960.6787,75.7722
962.0787,76.4266
963.4787,80.7943
964.8787,92.3232
966.2787,95.5534
967.6787,85.5189
969.0787,86.0044
970.4787,86.9322
971.8787,95.0646
973.2787,114.614
974.6787,123.378
976.0787,123.834
977.4787,127.422
978.8787,142.984
980.2787,162.772
981.6787,147.923
983.0787,143.865
984.4787,172.062
985.8787,172.547
987.2787,171.506
988.6787,172.907
990.0787,168.185
991.4787,158.949
992.8787,139.761
994.2787,139.198
995.6787,145.842
997.0787,120.996
998.4787,125.58
999.8787,132.65
1001.28,119.674
1002.68,109.351
1004.08,99.3687
1005.48,107.412
1006.88,116.051
1008.28,107.278
1009.68,135.798
1011.08,135.3
1012.48,115.4
1013.88,132.661
1015.28,136.91
1016.68,133.556
1018.08,138.166
1019.48,144.04
1020.88,132.769
1022.28,130.076
1023.68,132.993
1025.08,124.683
1026.48,111.376
1027.88,104.197
1029.28,97.6914
1030.68,83.028
1032.08,66.2994
1033.48,67.2573
1034.88,65.2264
1036.28,45.4987
1037.68,26.66
1039.08,28.5571
1040.48,49.305
1041.88,55.6816
1043.28,32.3412
1044.68,38.0287
1046.08,57.4606
1047.48,70.19
1048.88,76.8891
1050.28,78.2919
1051.68,76.0337
1053.08,75.5101
1054.48,86.1872
1055.88,109.858
1057.28,115.456
1058.68,121.605
1060.08,142.019
1061.48,151.069
1062.88,156.034
1064.28,165.489
1065.68,175.932
1067.08,180.059
1068.48,186.069
1069.88,203.385
1071.28,218.672
1072.68,228.486
1074.08,266.151
1075.48,269.992
1076.88,254.007
1078.28,268.469
1079.68,296.35
1081.08,312.224
1082.48,322.194
1083.88,347.314
1085.28,386.204
1086.68,396.863
1088.08,413.75
1089.48,453.249
1090.88,474.983
1092.28,454.134
1093.68,439.06
1095.08,448.07
1096.48,442.683
1097.88,394.32
1099.28,392.343
1100.68,403.393
1102.08,376.714
1103.48,359.556
1104.88,357.544
1106.28,353.829
1107.68,341.287
1109.08,331.457
1110.48,332.845
1111.88,315.867
1113.28,294.726
1114.68,292.557
1116.08,278.211
1117.48,277.68
1118.88,276.267
1120.28,257.008
1121.68,243.973
1123.08,242.14
1124.48,237.078
1125.88,234.572
1127.28,238.988
1128.68,209.698
1130.08,209.994
1131.48,215.102
1132.88,187.125
1134.28,195.479
1135.68,192.021
1137.08,161.707
1138.48,135.367
1139.88,130.649
1141.28,110.827
1142.68,96.5461
1144.08,83.8176
1145.48,57.0713
1146.88,54.878
1148.28,51.0776
1149.68,35.973
1151.08,28.8279
1152.48,41.6698
1153.88,48.3591
1155.28,40.3631
1156.68,33.7891
1158.08,38.7047
1159.48,30.2361
1160.88,13.4484
1162.28,13.9076
1163.68,28.7369
1165.08,22.8268
1166.48,27.7161
1167.88,32.7243
1169.28,24.4922
1170.68,19.0035
1172.08,28.1313
1173.48,40.3811
1174.88,32.7233
1176.28,21.183
1177.68,50.181
1179.08,41.2422
1180.48,29.7808
1181.88,44.7485
1183.28,43.1466
1184.68,32.9345
1186.08,36.5423
1187.48,38.5123
1188.88,24.2259
1190.28,22.9441
1191.68,35.3296
1193.08,32.8202
1194.48,27.5235
1195.88,52.7427
1197.28,66.0402
1198.68,63.9575
1200.08,80.2251
1201.48,112.507
1202.88,106.817
1204.28,93.6099
1205.68,75.1285
1207.08,48.9073
1208.48,29.4207
1209.88,24.1405
1211.28,34.4817
1212.68,35.2758
1214.08,23.2059
1215.48,28.8172
1216.88,24.1939
1218.28,23.6274
1219.68,38.7073
1221.08,48.5359
1222.48,34.2319
1223.88,37.5692
1225.28,43.3873
1226.68,30.1836
1228.08,24.5781
1229.48,41.5935
1230.88,35.7752
1232.28,30.6471
1233.68,57.5801
1235.08,59.1122
1236.48,49.6901
1237.88,56.2946
1239.28,67.1291
1240.68,60.6735
1242.08,65.824
1243.48,68.6725
1244.88,61.4373
1246.28,60.063
1247.68,70.8591
1249.08,51.9617
1250.48,45.4025
1251.88,56.3038
1253.28,51.376
1254.68,40.5694
1256.08,31.0149
1257.48,45.9734
1258.88,61.8079
1260.28,42.9171
1261.68,42.8582
1263.08,44.2992
1264.48,48.662
1265.88,67.969
1267.28,86.6799
1268.68,90.2642
1270.08,105.455
1271.48,116.41
1272.88,112.926
1274.28,142.875
1275.68,164.895
1277.08,174.338
1278.48,186.854
1279.88,205.456
1281.28,223.541
1282.68,233.346
1284.08,226.795
1285.48,222.024
1286.88,241.344
1288.28,250.088
1289.68,240.753
1291.08,241.264
1292.48,263.05
1293.88,279.487
1295.28,283.718
1296.68,279.447
1298.08,261.265
1299.48,229.55
1300.88,204.472
1302.28,188.851
1303.68,160.753
1305.08,131.52
1306.48,123.332
1307.88,108.745
1309.28,75.4346
1310.68,63.7625
1312.08,70.5028
1313.48,58.5911
1314.88,57.8253
1316.28,51.9407
1317.68,35.3174
1319.08,26.5252
1320.48,33.7154
1321.88,28.4959
1323.28,27.8064
1324.68,28.28
1326.08,22.5134
1327.48,24.7572
1328.88,34.5764
1330.28,31.5649
1331.68,23.5609
1333.08,26.3041
1334.48,30.7277
1335.88,28.1707
1337.28,33.7074
1338.68,39.3864
1340.08,39.1994
1341.48,51.2558
1342.88,50.1917
1344.28,31.951
1345.68,21.9069
1347.08,35.561
1348.48,48.6318
1349.88,36.9763
1351.28,35.7276
1352.68,39.5761
1354.08,34.9385
1355.48,54.7389
1356.88,39.0892
1358.28,31.3913
1359.68,37.6545
1361.08,28.8482
1362.48,36.7958
1363.88,31.6426
1365.28,32.5371
1366.68,36.868
1368.08,32.1289
1369.48,46.9288
1370.88,43.754
1372.28,36.7605
1373.68,37.4121
1375.08,34.0358
1376.48,34.0451
1377.88,53.7401
1379.28,43.9396
1380.68,22.1412
1382.08,35.042
1383.48,41.384
1384.88,36.2302
1386.28,28.0952
1387.68,26.5423
1389.08,30.5549
1390.48,29.8459
1391.88,35.5734
1393.28,43.4267
1394.68,50.8714
1396.08,58.0393
1397.48,57.7679
1398.88,51.484
1400.28,41.8184
1401.68,35.1226
1403.08,41.6698
1404.48,61.8314
1405.88,68.3904
1407.28,60.67
1408.68,66.3796
1410.08,71.6845
1411.48,38.0317
1412.88,39.2775
1414.28,38.367
1415.68,32.9899
1417.08,36.7029
1418.48,30.664
1419.88,40.7566
1421.28,60.1556
1422.68,75.997
1424.08,91.65
1425.48,111.922
1426.88,120.81
1428.28,129.794
1429.68,159.065
1431.08,194.949
1432.48,215.953
1433.88,243.939
1435.28,261.871
1436.68,276.353
1438.08,297.828
1439.48,315.967
1440.88,320.401
1442.28,338.393
1443.68,354.667
1445.08,356.57
1446.48,357.624
1447.88,367.822
1449.28,368.625
1450.68,367.197
1452.08,346.092
1453.48,320.891
1454.88,334.977
1456.28,330.829
1457.68,316.088
1459.08,307.935
1460.48,303.759
1461.88,296.472
1463.28,294.789
1464.68,314.495
1466.08,340.239
1467.48,356.004
1468.88,363.329
1470.28,367.785
1471.68,369.184
1473.08,353.4
1474.48,328.832
1475.88,308.641
1477.28,290.391
1478.68,282.666
1480.08,264.501
1481.48,235.187
1482.88,218.709
1484.28,213.626
1485.68,177.166
1487.08,147.781
1488.48,122.003
1489.88,95.506
1491.28,74.2151
1492.68,46.8378
1494.08,33.4679
1495.48,40.0623
1496.88,40.4771
1498.28,32.8169
1499.68,38.1607
1501.08,26.382
1502.48,31.957
1503.88,34.8382
1505.28,23.4064
1506.68,22.5751
1508.08,27.7447
1509.48,23.1762
1510.88,38.2933
1512.28,48.5045
1513.68,36.0977
1515.08,37.8379
1516.48,27.9478
1517.88,30.3243
1519.28,32.3417
1520.68,28.7787
1522.08,31.1079
1523.48,23.4914
1524.88,32.281
1526.28,31.7892
1527.68,24.1584
1529.08,26.7502
1530.48,27.9252
1531.88,29.8268
1533.28,29.2784
1534.68,31.5406
1536.08,31.4052
1537.48,25.4785
1538.88,31.5842
1540.28,38.0713
1541.68,46.509
1543.08,46.3531
1544.48,43.1997
1545.88,55.267
1547.28,53.4921
1548.68,44.7906
1550.08,36.8559
1551.48,32.2182
1552.88,34.9928
1554.28,43.2035
1555.68,37.9724
1557.08,27.3882
1558.48,28.5921
1559.88,40.9752
1561.28,41.7201
1562.68,25.312
1564.08,50.9121
1565.48,45.9176
1566.88,21.7956
1568.28,25.6147
1569.68,24.6262
1571.08,28.7721
1572.48,41.094
1573.88,39.7061
1575.28,31.1417
1576.68,31.268
1578.08,26.2149
1579.48,26.6109
1580.88,37.0791
1582.28,42.3478
1583.68,46.1386
1585.08,59.8268
1586.48,66.143
1587.88,76.9044
1589.28,95.2748
1590.68,128.63
1592.08,187.458
1593.48,258.675
1594.88,308.492
1596.28,353.835
1597.68,341.668
1599.08,272.913
1600.48,197.283
1601.88,137.962
1603.28,109.213
1604.68,95.485
1606.08,82.4394
1607.48,64.7196
1608.88,49.3153
1610.28,48.5975
1611.68,56.3668
1613.08,55.8352
1614.48,52.225
1615.88,53.3924
1617.28,62.5026
1618.68,81.8065
1620.08,98.0718
1621.48,114.706
1622.88,154.961
1624.28,222.739
1625.68,310.841
1627.08,418.062
1628.48,501.315
1629.88,519.976
1631.28,457.202
1632.68,367.007
1634.08,314.954
1635.48,284.324
1636.88,238.749
1638.28,193.249
1639.68,141.346
1641.08,100.549
1642.48,82.0587
1643.88,50.6382
1645.28,48.5528
1646.68,34.2543
1648.08,26.1033
1649.48,37.6854
1650.88,39.9863
1652.28,31.6942
1653.68,28.5274
1655.08,22.7325
1656.48,32.5265
1657.88,40.2319
1659.28,27.5566
1660.68,31.803
1662.08,38.8757
1663.48,33.8468
1664.88,25.4408
1666.28,25.2939
1667.68,31.5998
1669.08,33.7906
1670.48,28.9152
1671.88,37.8777
1673.28,32.25
1674.68,27.3229
1676.08,39.9267
1677.48,33.6625
1678.88,26.356
1680.28,49.5739
1681.68,45.575
1683.08,29.2467
1684.48,40.1387
1685.88,48.7098
1687.28,41.9383
1688.68,38.3855
1690.08,27.227
1691.48,30.2919
1692.88,40.4974
1694.28,30.4127
1695.68,33.9118
1697.08,39.9616
1698.48,49.9816
1699.88,55.3448
1701.28,53.6519
1702.68,54.024
1704.08,58.1121
1705.48,63.0717
1706.88,60.7632
1708.28,58.4287
1709.68,54.7067
1711.08,59.5363
1712.48,81.6639
1713.88,84.7845
1715.28,110.071
1716.68,114.105
1718.08,114.31
1719.48,139.918
1720.88,154.946
1722.28,144.521
1723.68,144.052
1725.08,124.529
1726.48,114.175
1727.88,112.126
1729.28,90.8896
1730.68,71.0378
1732.08,54.1324
1733.48,52.9358
1734.88,70.3457
1736.28,71.2304
1737.68,56.3064
1739.08,56.955
1740.48,47.7773
1741.88,35.6496
1743.28,39.3326
1744.68,34.3347
1746.08,25.7237
1747.48,30.1577
1748.88,29.21
1750.28,37.495
1751.68,35.4377
1753.08,35.7244
1754.48,43.4852
1755.88,37.9432
1757.28,24.7986
1758.68,37.9028
1760.08,33.8895
1761.48,26.5812
1762.88,26.4554
1764.28,34.9224
1765.68,37.4274
1767.08,24.7813
1768.48,36.1172
1769.88,55.1632
1771.28,50.6764
1772.68,37.9929
1774.08,27.1027
1775.48,27.6648
1776.88,50.639
1778.28,31.9567
1779.68,35.7963
1781.08,42.8369
1782.48,37.4615
1783.88,33.7855
1785.28,29.8274
1786.68,25.6268
1788.08,39.2007
1789.48,39.1258
1790.88,33.2101
1792.28,42.4639
1793.68,50.7485
1795.08,39.7349
1796.48,36.0751
1797.88,41.7843
1799.28,49.2461
1800.68,34.9445
1802.08,27.6136
1803.48,41.6996
1804.88,43.5815
1806.28,49.9624
1807.68,47.4791
1809.08,26.0398
1810.48,40.9538
1811.88,55.9647
1813.28,42.0729
1814.68,54.0671
1816.08,47.3875
1817.48,54.3524
1818.88,55.6981
1820.28,45.7277
1821.68,39.6553
1823.08,42.334
1824.48,45.254
1825.88,39.8259
1827.28,27.2293
1828.68,28.2262
1830.08,40.3606
1831.48,38.1691
1832.88,35.2287
1834.28,50.5104
1835.68,37.3706
1837.08,40.6762
1838.48,29.0413
1839.88,30.5596
1841.28,45.0207
1842.68,40.1113
1844.08,33.5677
1845.48,41.4375
1846.88,27.2988
1848.28,28.7006
1849.68,29.675
1851.08,25.2414
1852.48,25.8353
1853.88,24.162
1855.28,25.6037
1856.68,28.2903
1858.08,25.838
1859.48,26.8002
1860.88,32.1473
1862.28,38.5264
1863.68,37.1706
1865.08,24.7218
1866.48,31.5268
1867.88,26.0135
1869.28,33.2211
1870.68,46.8633
1872.08,39.3923
1873.48,24.0299
1874.88,27.4029
1876.28,34.5518
1877.68,39.8179
1879.08,36.3043
1880.48,44.0027
1881.88,36.9352
1883.28,27.8571
1884.68,46.3319
1886.08,31.8862
1887.48,32.9547
1888.88,36.8411
1890.28,27.0982
1891.68,31.9873
1893.08,42.4525
1894.48,32.7071
1895.88,32.1638
1897.28,44.8485
1898.68,28.8778
1900.08,25.5844
1901.48,38.3163
1902.88,37.0686
1904.28,31.2402
1905.68,35.4021
1907.08,27.7164
1908.48,32.6874
1909.88,30.1723
1911.28,27.8303
1912.68,24.7604
1914.08,23.7436
1915.48,35.1645
1916.88,44.2599
1918.28,33.8742
1919.68,38.332
1921.08,39.5106
1922.48,26.121
1923.88,35.034
1925.28,45.8619
1926.68,28.3863
1928.08,27.3037
1929.48,35.4641
1930.88,43.0032
1932.28,28.555
1933.68,29.7728
1935.08,45.054
1936.48,42.1267
1937.88,33.0215
1939.28,39.019
1940.68,37.9313
1942.08,37.5381
1943.48,25.2799
1944.88,34.3317
1946.28,41.377
1947.68,32.1733
1949.08,35.5721
1950.48,35.1863
1951.88,37.2673
1953.28,39.7536
1954.68,46.0061
1956.08,33.8933
1957.48,19.9726
1958.88,22.984
1960.28,26.2971
1961.68,26.0674
1963.08,25.9982
1963.28,26.0227

##### Extended Information
[Comments]
Sample name,cer
Comment,
User
Division
Company,JASCO

[Detailed Information]
Creation date,4/6/2021 15:17

Data array type,Linear data array
Horizontal axis,Raman Shift [cm-1]
Vertical axis,Int.
Start,88.4787 cm-1
End,1963.28 cm-1
Data interval,0.2 cm-1
Data points,9375

[Measurement Information]
Model Name,NRS-5100
Serial Number,B002561420

Exposure,60 sec
Accumulation,4
Center wavenumber,1091.04 cm-1
Z position,57224.8 um
Binning Upper,111
Binning Lower,165
Valid Channel,1 - 1024
CCD,DU420_OE

Laser wavelength,532.10 nm
Monochromator,Single
Grating,1200 l/mm
Slit,25 x 1000 um
Aperture,d-4000 um
Notch filter,532.0 nm
Resolution,1.75 cm-1, 1.83 cm-1/pixel
Objective lens,UMPLFL 20 x
BS/DM,BS 30/70
1/2 plate,Not fitted
Polarization,Not fitted
Laser power,3.6 mW
Attenuator,Open
Cosmic ray reduction,On
Delete Fluorence,R=100
CCD temperature,-69.0 C
Shift,-3.60 cm-1